Folder: resources/mechanics/data/polymer_tensile

Note: mechanics/data/polymer_tensile/example-metadata.json
{
  "@context": [
    "http://www.w3.org/ns/csvw",
    {
      "oa": "http://www.w3.org/ns/oa#",
      "label": "http://www.w3.org/2000/01/rdf-schema#label",
      "xsd": "http://www.w3.org/2001/XMLSchema#",
      "qudt": "http://qudt.org/schema/qudt/"
    }
  ],
  "@id": "",
  "url": "example.csv",
  "notes": [
    {
      "@id": "AktuelleProbe0",
      "label": "aktuelle Probe",
      "@type": "oa:Annotation",
      "rownum": {
        "@value": 0,
        "@type": "xsd:integer"
      },
      "oa:hasBody": [
        {
          "@type": "qudt:QuantityValue",
          "qudt:value": {
            "@value": 17,
            "@type": "xsd:integer"
          }
        }
      ]
    },
    {
      "@id": "Einspannlaenge1",
      "label": "Einspannl채nge",
      "@type": "oa:Annotation",
      "rownum": {
        "@value": 1,
        "@type": "xsd:integer"
      },
      "oa:hasBody": [
        {
          "@type": "qudt:QuantityValue",
          "qudt:value": {
            "@value": 832.756,
            "@type": "xsd:decimal"
          },
          "qudt:unit": {
            "@id": "http://qudt.org/vocab/unit/MilliM",
            "@type": "http://qudt.org/schema/qudt/DerivedUnit"
          }
        }
      ]
    },
    {
      "@id": "Messlaenge2",
      "label": "Messl채nge",
      "@type": "oa:Annotation",
      "rownum": {
        "@value": 2,
        "@type": "xsd:integer"
      },
      "oa:hasBody": [
        {
          "@type": "oa:TextualBody",
          "oa:purpose": "oa:tagging",
          "oa:format": "text/plain",
          "oa:value": "nicht bekannt"
        }
      ]
    },
    {
      "@id": "ProbenbreiteB03",
      "label": "Probenbreite b0",
      "@type": "oa:Annotation",
      "rownum": {
        "@value": 3,
        "@type": "xsd:integer"
      },
      "oa:hasBody": [
        {
          "@type": "qudt:QuantityValue",
          "qudt:value": {
            "@value": 11.4,
            "@type": "xsd:decimal"
          },
          "qudt:unit": {
            "@id": "http://qudt.org/vocab/unit/MilliM",
            "@type": "http://qudt.org/schema/qudt/DerivedUnit"
          }
        }
      ]
    },
    {
      "@id": "ProbendickeA04",
      "label": "Probendicke a0",
      "@type": "oa:Annotation",
      "rownum": {
        "@value": 4,
        "@type": "xsd:integer"
      },
      "oa:hasBody": [
        {
          "@type": "qudt:QuantityValue",
          "qudt:value": {
            "@value": 0.2,
            "@type": "xsd:decimal"
          },
          "qudt:unit": {
            "@id": "http://qudt.org/vocab/unit/MilliM",
            "@type": "http://qudt.org/schema/qudt/DerivedUnit"
          }
        }
      ]
    },
    {
      "@id": "Pruefgeschwindigkeit5",
      "label": "Pr체fgeschwindigkeit",
      "@type": "oa:Annotation",
      "rownum": {
        "@value": 5,
        "@type": "xsd:integer"
      },
      "oa:hasBody": [
        {
          "@type": "qudt:QuantityValue",
          "qudt:value": {
            "@value":

Note: mechanics/data/polymer_tensile/Zugversuch_eng_ETFE-Ref+Groesseneffekt2-metadata.json
{
  "@context": [
    "http://www.w3.org/ns/csvw",
    {
      "oa": "http://www.w3.org/ns/oa#",
      "label": "http://www.w3.org/2000/01/rdf-schema#label",
      "xsd": "http://www.w3.org/2001/XMLSchema#",
      "qudt": "http://qudt.org/schema/qudt/",
      "dc": "http://purl.org/dc/elements/1.1/",
      "prov": "http://www.w3.org/ns/prov#"
    }
  ],
  "@id": "",
  "url": "https://github.com/Mat-O-Lab/resources/raw/main/mechanics/data/polymer_tensile/Zugversuch_eng_ETFE-Ref%2BGroesseneffekt2.TRA",
  "notes": [
    {
      "@id": "AktuelleProbe0",
      "label": "aktuelle Probe",
      "@type": "oa:Annotation",
      "rownum": {
        "@value": 0,
        "@type": "xsd:integer"
      },
      "oa:hasBody": [
        {
          "@type": "qudt:QuantityValue",
          "qudt:value": {
            "@value": 12,
            "@type": "http://www.w3.org/2001/XMLSchema#integer"
          }
        }
      ]
    },
    {
      "@id": "Einspannlaenge1",
      "label": "Einspannl채nge",
      "@type": "oa:Annotation",
      "rownum": {
        "@value": 1,
        "@type": "xsd:integer"
      },
      "oa:hasBody": [
        {
          "@type": "qudt:QuantityValue",
          "qudt:value": {
            "@value": 832.756,
            "@type": "http://www.w3.org/2001/XMLSchema#double"
          },
          "qudt:unit": {
            "@id": "http://qudt.org/vocab/unit/MilliM",
            "@type": "http://qudt.org/schema/qudt/DerivedUnit"
          }
        }
      ]
    },
    {
      "@id": "Messlaenge2",
      "label": "Messl채nge",
      "@type": "oa:Annotation",
      "rownum": {
        "@value": 2,
        "@type": "xsd:integer"
      },
      "oa:hasBody": [
        {
          "@type": "oa:TextualBody",
          "oa:purpose": "oa:tagging",
          "oa:format": "text/plain",
          "oa:value": "nicht bekannt"
        }
      ]
    },
    {
      "@id": "ProbenbreiteB03",
      "label": "Probenbreite b0",
      "@type": "oa:Annotation",
      "rownum": {
        "@value": 3,
        "@type": "xsd:integer"
      },
      "oa:hasBody": [
        {
          "@type": "qudt:QuantityValue",
          "qudt:value": {
            "@value": 11.8,
            "@type": "http://www.w3.org/2001/XMLSchema#double"
          },
          "qudt:unit": {
            "@id": "http://qudt.org/vocab/unit/MilliM",
            "@type": "http://qudt.org/schema/qudt/DerivedUnit"
          }
        }
      ]
    },
    {
      "@id": "ProbendickeA04",
      "label": "Probendicke a0",
      "@type": "oa:Annotation",
      "rownum": {
        "@value": 4,
        "@type": "xsd:integer"
      },
      "oa:hasBody": [
        {
          "@type": "qudt:QuantityValue",
          "qudt:value": {
            "@value": 0.19,
            "@type": "http://www.w3.org/2001/XMLSchema#double"
          },
          "qudt:unit": {
            "@id": "http://qudt.org/vocab/unit/MilliM",
            "@type": "http://qudt.org/schema/qudt/DerivedUnit"
          }
        }
      ]
 

File: Zugversuch_eng_ETFE-Ref+Groesseneffekt5.TRA
"aktuelle Probe"	"15"
"Einspannlänge"	832.756	"mm"
"Messlänge"	"nicht bekannt"
"Probenbreite b0"	11.9	"mm"
"Probendicke a0"	0.193	"mm"
"Prüfgeschwindigkeit"	150	"mm/min"
"Vorkraft"	0.2	"N"
"Weg nach Bruch"	5	"mm"
"E-Modul"	1089.45	"N/mm²"
"Dehnung bei Fmax"	373.47	"%"
"Dehnung bei Bruch"	373.554	"%"
"obere Streckgrenze"	"nicht bekannt"
"Kraftmaximum"	43.3088	"N/mm²"
"Bruchkraft"	"nicht bekannt"
"Geschwindigkeit E-Modul"	1	"%L0/min"
"Datum"	"20.02.2008"
"Prüfzeit"	"Standardweg"	"Standardkraft"	"Dehnung"	"Traverse abs."
"s"	"mm"	"N"	"%"	"mm"
0.0191406	2.00856e-005	0.202286	2.5107e-005	785.061
7.58914	0.0972206	2.39194	0.121526	785.158
14.8591	0.194112	5.49974	0.24264	785.255
16.4291	0.763545	23.1637	0.954432	785.825
17.3391	1.36997	36.777	1.71247	786.431
18.2491	1.97644	43.0277	2.47054	787.037
19.6891	2.93755	45.3833	3.67194	787.999
21.5091	4.15142	46.8525	5.18927	789.212
23.3291	5.36372	48.5427	6.70465	790.425
25.1491	6.57635	50.371	8.22044	791.637
26.9691	7.78996	52.1378	9.73745	792.851
28.7891	9.00401	53.6922	11.255	794.065
30.6091	10.2175	54.9623	12.7719	795.278
32.4291	11.4299	55.8461	14.2874	796.491
34.2491	12.6428	56.4238	15.8036	797.704
36.0691	13.8568	56.7339	17.321	798.918
37.8891	15.0712	56.8487	18.839	800.132
39.7091	16.285	56.8433	20.3563	801.346
41.5291	17.4971	56.7757	21.8713	802.558
43.3491	18.7094	56.6895	23.3868	803.77
45.1691	19.9229	56.5405	24.9036	804.984
46.9891	21.1371	56.4622	26.4213	806.198
48.8091	22.351	56.4675	27.9387	807.412
50.6291	23.5635	56.4659	29.4544	808.624
52.4491	24.7764	56.4596	30.9705	809.837
54.2691	25.9903	56.4758	32.4878	811.051
56.0891	27.2045	56.5469	34.0056	812.265
57.9091	28.4179	56.6565	35.5224	813.479
59.7291	29.6301	56.7079	37.0377	814.691
61.5491	30.8428	56.8278	38.5535	815.904
63.3691	32.0564	56.9718	40.0705	817.117
65.1891	33.2707	57.0459	41.5884	818.332
67.0091	34.4846	57.1111	43.1057	819.546
68.8291	35.6969	57.2048	44.6211	820.758
70.6491	36.9095	57.2454	46.1369	821.971
72.4691	38.1232	57.3015	47.654	823.184
74.2891	39.3376	57.4187	49.172	824.399
76.1091	40.5514	57.5088	50.6893	825.612
77.9291	41.7637	57.5577	52.2047	826.825
79.7491	42.9764	57.6149	53.7205	828.037
81.5691	44.19	57.6664	55.2375	829.251
83.3891	45.404	57.7514	56.755	830.465
85.2091	46.6176	57.8866	58.272	831.679
87.0291	47.8299	58.0087	59.7874	832.891
88.8491	49.0429	58.0902	61.3036	834.104
90.6691	50.2568	58.1646	62.821	835.318
92.4891	51.4712	58.2032	64.339	836.532
94.3091	52.6849	58.2734	65.8562	837.746
96.1291	53.897	58.3257	67.3713	838.958
97.9491	55.1094	58.3837	68.8868	840.17
99.7691	56.3229	58.4528	70.4036	841.384
101.589	57.5371	58.4812	71.9213	842.598
103.409	58.751	58.5388	73.4387	843.812
105.229	59.9635	58.6178	74.9544	845.025
107.049	61.1764	58.6965	76.4705	846.237
108.869	62.3902	58.7938	77.9878	847.451
110.689	63.6045	58.8416	79.5056	848.665
112.509	64.8179	58.9148	81.0223	849.879
114.329	66.0301	58.974	82.5376	851.091
116.149	67.2428	59.0279	84.0535	852.304
117.969	68.4564	59.0821	85.5705	853.517
119.789	69.6707	59.1251	87.0884	854.732
121.609	70.8845	59.2188	88.6057	855.945
123.429	72.0969	59.3064	90.1211	857.158
125.249	73.3095	59.414	91.6369	858.37
127.069	74.5231	59.5358	93.1539	859.584
128.889	75.7376	59.6339	94.672	860.799
130.709	76.9514	59.7359	96.1893	862.012
132.529	78.1638	59.8179	97.7047	863.225
134.349	79.3764	59.9097	99.2205	864.437
136.169	80.5899	60.0523	100.737	865.651
137.989	81.804	60.2322	102.255	866.865
139.809	83.0175	60.3536	103.772	868.078
141.629	84.23	60.4536	105.287	869.291
143.449	85.4429	60.5113	106.804	870.504
145.269	86.6568	60.5816	108.321	871.718
147.089	87.8713	60.6851	109.839	872.932
148.909	89.085	60.7838	111.356	874.146
150.729	90.2971	60.9065	112.871	875.358
152.549	91.5094	60.9974	114.387	876.57
154.369	92.7229	61.0759	115.904	877.784
156.189	93.9371	61.1524	117.421	878.998
158.009	95.151	61.2735	118.939	880.212
159.829	96.3635	61.3917	120.454	881.424
161.649	97.5764	61.4521	121.97	882.637
163.469	98.7902	61.5283	123.488	883.851
165.289	100.004	61.586	125.006	885.065
167.109	101.218	61.6695	126.522	886.279
168.929	102.43	61.821	128.038	887.491
170.749	103.643	61.9372	129.554	888.704
172.569	104.856	62.0204	131.07	889.917
174.389	106.071	62.1276	132.588	891.132
176.209	107.285	62.2418	134.106	892.346
178.029	108.497	62.3916	135.621	893.558
179.849	109.71	62.5215	137.137	894.77
181.669	110.923	62.6321	138.654	895.984
183.489	112.138	62.7511	140.172	897.199
185.309	113.351	62.8514	141.689	898.412
187.129	114.564	62.9782	143.205	899.625
188.949	115.776	63.0943	144.72	900.837
190.769	116.99	63.199	146.237	902.051
192.589	118.204	63.3467	147.755	903.265
194.409	119.418	63.4948	149.272	904.478
196.229	120.63	63.6735	150.787	905.691
198.049	121.843	63.8584	152.304	906.904
199.869	123.057	64.0422	153.821	908.118
201.689	124.271	64.1944	155.339	909.332
203.509	125.485	64.3061	156.856	910.546
205.329	126.697	64.4059	158.371	911.758
207.149	127.909	64.4924	159.887	912.97
208.969	129.123	64.5908	161.404	914.184
210.789	130.337	64.7234	162.921	915.398
212.609	131.551	64.9155	164.439	916.612
214.429	132.764	65.0428	165.954	917.825
216.249	133.976	65.1802	167.471	919.037
218.069	135.19	65.34	168.988	920.251
219.889	136.404	65.5207	170.506	921.465
221.709	137.618	65.6705	172.022	922.679
223.529	138.83	65.7954	173.538	923.891
225.349	140.043	65.9993	175.054	925.104
227.169	141.256	66.1736	176.57	926.317
228.989	142.471	66.2975	178.088	927.532
230.809	143.685	66.3867	179.606	928.746
232.629	144.897	66.5282	181.121	929.958
234.449	146.11	66.694	182.637	931.17
236.269	147.323	66.8211	184.154	932.384
238.089	148.538	66.9746	185.672	933.599
239.909	149.751	67.137	187.189	934.812
241.729	150.964	67.3636	188.705	936.025
243.549	152.176	67.5933	190.22	937.237
245.369	153.39	67.7851	191.737	938.451
247.189	154.604	67.9022	193.255	939.665
249.009	155.818	68.0348	194.772	940.879
250.829	157.03	68.235	196.287	942.091
252.649	158.243	68.4886	197.804	943.304
254.469	159.457	68.6566	199.321	944.518
256.289	160.671	68.7836	200.839	945.732
258.109	161.885	68.9549	202.356	946.946
259.929	163.097	69.0983	203.871	948.158
261.749	164.309	69.2657	205.387	949.37
263.569	165.523	69.4763	206.904	950.584
265.389	166.737	69.6852	208.421	951.798
267.209	167.951	69.9033	209.939	953.012
269.029	169.164	70.1367	211.454	954.225
270.849	170.376	70.3531	212.971	955.437
272.669	171.59	70.5585	214.488	956.651
274.489	172.804	70.7779	216.006	957.865
276.309	174.018	70.9247	217.522	959.079
278.129	175.23	71.0866	219.038	960.291
279.949	176.443	71.2958	220.553	961.504
281.769	177.656	71.5284	222.071	962.717
283.589	178.871	71.7612	223.588	963.932
285.409	180.085	71.9764	225.106	965.145
287.229	181.297	72.1881	226.621	966.358
289.049	182.509	72.4105	228.137	967.57
290.869	183.723	72.5983	229.654	968.784
292.689	184.938	72.8176	231.172	969.999
294.509	186.152	73.1149	232.689	971.212
296.329	187.364	73.4204	234.205	972.425
298.149	188.576	73.7036	235.721	973.637
299.969	189.79	73.9374	237.237	974.851
301.789	191.004	74.1341	238.755	976.065
303.609	192.218	74.3674	240.272	977.279
305.429	193.43	74.557	241.787	978.491
307.249	194.643	74.7332	243.304	979.704
309.069	195.857	74.8853	244.821	980.918
310.889	197.071	75.0398	246.339	982.132
312.709	198.285	75.2537	247.856	983.346
314.529	199.497	75.5256	249.371	984.558
316.349	200.709	75.8016	250.887	985.77
318.169	201.923	76.015	252.404	986.984
319.989	203.137	76.168	253.921	988.198
321.809	204.351	76.3919	255.439	989.412
323.629	205.564	76.6824	256.954	990.624
325.449	206.776	76.9694	258.47	991.837
327.269	207.99	77.1555	259.988	993.051
329.089	209.204	77.3718	261.506	994.265
330.909	210.418	77.643	263.022	995.479
332.729	211.63	77.8751	264.538	996.691
334.549	212.843	78.1418	266.054	997.904
336.369	214.056	78.43	267.571	999.117
338.189	215.271	78.6961	269.088	1000.33
340.009	216.485	79.0197	270.606	1001.55
341.829	217.697	79.329	272.121	1002.76
343.649	218.91	79.5168	273.637	1003.97
345.469	220.123	79.7305	275.154	1005.18
347.289	221.338	79.9305	276.672	1006.4
349.109	222.551	80.1474	278.189	1007.61
350.929	223.764	80.3931	279.705	1008.82
352.749	224.976	80.6341	281.221	1010.04
354.569	226.19	80.9165	282.737	1011.25
356.389	227.404	81.1949	284.255	1012.47
358.209	228.618	81.4129	285.772	1013.68
360.029	229.83	81.6143	287.287	1014.89
361.849	231.043	81.8501	288.804	1016.1
363.669	232.257	82.1515	290.321	1017.32
365.489	233.471	82.4359	291.839	1018.53
367.309	234.685	82.7374	293.356	1019.75
369.129	235.897	83.0431	294.871	1020.96
370.949	237.109	83.3315	296.387	1022.17
372.769	238.323	83.6395	297.903	1023.38
374.589	239.537	83.9157	299.421	1024.6
376.409	240.751	84.1932	300.939	1025.81
378.229	241.964	84.4778	302.454	1027.02
380.049	243.176	84.8797	303.97	1028.24
381.869	244.39	85.2491	305.488	1029.45
383.689	245.604	85.6003	307.006	1030.67
385.509	246.818	85.9486	308.522	1031.88
387.329	248.03	86.1845	310.038	1033.09
389.149	249.243	86.3874	311.553	1034.3
390.969	250.456	86.6008	313.071	1035.52
392.789	251.671	86.8052	314.588	1036.73
394.609	252.885	87.0404	316.106	1037.95
396.429	254.097	87.3955	317.621	1039.16
398.249	255.309	87.7733	319.137	1040.37
400.069	256.523	88.0526	320.654	1041.58
401.889	257.738	88.3164	322.172	1042.8
403.709	258.951	88.6283	323.689	1044.01
405.529	260.164	88.9743	325.205	1045.22
407.349	261.376	89.3716	326.72	1046.44
409.169	262.59	89.6977	328.237	1047.65
410.989	263.804	89.9757	329.755	1048.87
412.809	265.018	90.372	331.272	1050.08
414.629	266.23	90.8331	332.787	1051.29
416.449	267.443	91.1923	334.304	1052.5
418.269	268.657	91.5342	335.821	1053.72
420.089	269.871	91.818	337.339	1054.93
421.909	271.085	92.0967	338.856	1056.15
423.729	272.297	92.4411	340.371	1057.36
425.549	273.509	92.7316	341.887	1058.57
427.369	274.723	93.0092	343.404	1059.78
429.189	275.937	93.332	344.921	1061
431.009	277.151	93.6912	346.439	1062.21
432.829	278.364	94.0489	347.954	1063.42
434.649	279.576	94.3948	349.47	1064.64
436.469	280.79	94.713	350.988	1065.85
438.289	282.004	95.0735	352.506	1067.07
440.109	283.218	95.4659	354.022	1068.28
441.929	284.43	95.7971	355.538	1069.49
443.749	285.643	96.0588	357.054	1070.7
445.569	286.856	96.3371	358.571	1071.92
447.389	288.071	96.6319	360.088	1073.13
449.209	289.284	97.0107	361.606	1074.35
451.029	290.497	97.4071	363.121	1075.56
452.849	291.71	97.6781	364.637	1076.77
454.669	292.923	97.9243	366.154	1077.98
456.489	294.138	98.2496	367.672	1079.2
458.309	295.351	98.6144	369.189	1080.41
460.129	296.564	99.0044	370.705	1081.62
461.949	297.776	99.2768	372.22	1082.84
463.549	298.843	99.4565	373.554	1083.9