Folder: resources/mechanics/data/polymer_tensile (part 2)

File: Zugversuch_eng_ETFE-Ref+Groesseneffekt8.TRA
"aktuelle Probe"	"18"
"Einspannlänge"	832.756	"mm"
"Messlänge"	"nicht bekannt"
"Probenbreite b0"	11.83	"mm"
"Probendicke a0"	0.19	"mm"
"Prüfgeschwindigkeit"	150	"mm/min"
"Vorkraft"	0.2	"N"
"Weg nach Bruch"	5	"mm"
"E-Modul"	1166.41	"N/mm²"
"Dehnung bei Fmax"	344.372	"%"
"Dehnung bei Bruch"	344.471	"%"
"obere Streckgrenze"	"nicht bekannt"
"Kraftmaximum"	42.3619	"N/mm²"
"Bruchkraft"	"nicht bekannt"
"Geschwindigkeit E-Modul"	1	"%L0/min"
"Datum"	"20.02.2008"
"Prüfzeit"	"Standardweg"	"Standardkraft"	"Dehnung"	"Traverse abs."
"s"	"mm"	"N"	"%"	"mm"
0.0203125	6.89016e-005	0.206442	8.6127e-005	785.179
6.80031	0.0870969	2.7971	0.108871	785.266
13.3603	0.174597	5.6468	0.218246	785.354
16.1003	0.57712	18.7064	0.7214	785.757
16.9203	1.12258	33.1111	1.40322	786.302
17.7403	1.6697	41.4574	2.08712	786.849
18.6403	2.26993	44.6421	2.83741	787.449
20.2803	3.3649	46.2189	4.20612	788.544
21.9203	4.45624	47.5575	5.5703	789.636
23.5603	5.55043	49.0733	6.93803	790.73
25.2003	6.64344	50.7282	8.30431	791.823
26.8403	7.73641	52.3846	9.67052	792.916
28.4803	8.83133	53.8979	11.0392	794.011
30.1203	9.92269	55.169	12.4034	795.102
31.7603	11.0168	56.1852	13.7711	796.196
33.4003	12.1099	56.9603	15.1374	797.289
35.0403	13.2028	57.5053	16.5035	798.382
36.6803	14.2978	57.8786	17.8723	799.477
38.3203	15.3893	58.1326	19.2367	800.569
39.9603	16.4839	58.3282	20.6048	801.663
41.6003	17.5769	58.4714	21.9711	802.756
43.2403	18.6699	58.583	23.3374	803.849
44.8803	19.7649	58.6579	24.7062	804.944
46.5203	20.8563	58.7499	26.0704	806.036
48.1603	21.9504	58.8657	27.438	807.13
49.8003	23.0435	58.9874	28.8044	808.223
51.4403	24.1364	59.0956	30.1705	809.316
53.0803	25.2313	59.1643	31.5392	810.411
54.7203	26.3227	59.2266	32.9033	811.502
56.3603	27.4168	59.2952	34.2711	812.596
58.0003	28.51	59.3654	35.6375	813.689
59.6403	29.6029	59.4464	37.0037	814.782
61.2803	30.6978	59.5444	38.3723	815.877
62.9203	31.7893	59.6414	39.7367	816.969
64.5603	32.8838	59.7191	41.1047	818.063
66.2003	33.9769	59.7949	42.4711	819.156
67.8403	35.0698	59.8476	43.8373	820.249
69.4803	36.1649	59.9239	45.2061	821.344
71.1203	37.2563	59.999	46.5703	822.436
72.7603	38.3505	60.0679	47.9381	823.53
74.4003	39.4435	60.1292	49.3044	824.623
76.0403	40.5364	60.2328	50.6705	825.716
77.6803	41.6312	60.3705	52.0391	826.811
79.3203	42.7227	60.4265	53.4033	827.902
80.9603	43.8168	60.5047	54.7711	828.996
82.6003	44.9099	60.5948	56.1373	830.089
84.2403	46.0029	60.6856	57.5036	831.182
85.8803	47.0978	60.7604	58.8722	832.277
87.5203	48.1893	60.8265	60.2366	833.369
89.1603	49.2838	60.875	61.6048	834.463
90.8003	50.3768	60.9528	62.971	835.556
92.4403	51.4699	61.0512	64.3373	836.649
94.0803	52.5648	61.1236	65.706	837.744
95.7203	53.6563	61.1978	67.0703	838.836
97.3603	54.7504	61.2478	68.438	839.93
99.0003	55.8435	61.312	69.8043	841.023
100.64	56.9364	61.411	71.1705	842.116
102.28	58.0313	61.4972	72.5391	843.211
103.92	59.1227	61.5566	73.9034	844.302
105.56	60.2169	61.6337	75.2711	845.396
107.2	61.3098	61.7135	76.6373	846.489
108.84	62.4028	61.8213	78.0036	847.582
110.48	63.4978	61.9114	79.3722	848.677
112.12	64.5893	61.9793	80.7366	849.769
113.76	65.6838	62.0361	82.1048	850.863
115.4	66.7769	62.1004	83.4711	851.956
117.04	67.8699	62.1335	84.8374	853.049
118.68	68.965	62.1894	86.2062	854.144
120.32	70.0563	62.2587	87.5704	855.236
121.96	71.1505	62.3436	88.9381	856.33
123.6	72.2434	62.3978	90.3043	857.423
125.24	73.3364	62.4658	91.6705	858.516
126.88	74.4313	62.5561	93.0391	859.611
128.52	75.5227	62.6178	94.4034	860.702
130.16	76.6168	62.6879	95.7711	861.796
131.8	77.71	62.7796	97.1374	862.889
133.44	78.8029	62.8792	98.5036	863.982
135.08	79.8978	62.956	99.8722	865.077
136.72	80.9893	63.0292	101.237	866.169
138.36	82.0838	63.1321	102.605	867.263
140	83.1768	63.2252	103.971	868.356
141.64	84.2699	63.3034	105.337	869.449
143.28	85.3649	63.392	106.706	870.544
144.92	86.4563	63.4854	108.07	871.636
146.56	87.5505	63.5701	109.438	872.73
148.2	88.6435	63.6311	110.804	873.823
149.84	89.7364	63.7225	112.171	874.916
151.48	90.8313	63.8307	113.539	876.011
153.12	91.9226	63.9186	114.903	877.102
154.76	93.0168	64.0075	116.271	878.196
156.4	94.1099	64.1197	117.637	879.289
158.04	95.2029	64.2056	119.004	880.382
159.68	96.2978	64.2726	120.372	881.477
161.32	97.3893	64.3237	121.737	882.569
162.96	98.4838	64.3822	123.105	883.663
164.6	99.5769	64.4472	124.471	884.756
166.24	100.67	64.5124	125.837	885.849
167.88	101.765	64.5774	127.206	886.944
169.52	102.856	64.6335	128.57	888.036
171.16	103.95	64.7083	129.938	889.13
172.8	105.043	64.7815	131.304	890.223
174.44	106.136	64.8615	132.67	891.316
176.08	107.231	64.9175	134.039	892.411
177.72	108.323	64.994	135.403	893.502
179.36	109.417	65.1317	136.771	894.596
181	110.51	65.292	138.137	895.689
182.64	111.603	65.4287	139.504	896.782
184.28	112.698	65.5297	140.872	897.877
185.92	113.789	65.6062	142.237	898.969
187.56	114.884	65.7267	143.605	900.063
189.2	115.977	65.8483	144.971	901.156
190.84	117.07	65.9613	146.337	902.249
192.48	118.165	66.0282	147.706	903.344
194.12	119.256	66.1188	149.07	904.436
195.76	120.35	66.2138	150.438	905.53
197.4	121.443	66.3302	151.804	906.623
199.04	122.536	66.4902	153.17	907.716
200.68	123.631	66.6554	154.539	908.811
202.32	124.723	66.7931	155.903	909.902
203.96	125.817	66.9503	157.271	910.996
205.6	126.91	67.0568	158.637	912.089
207.24	128.003	67.1944	160.004	913.182
208.88	129.098	67.2872	161.372	914.277
210.52	130.189	67.4176	162.737	915.369
212.16	131.284	67.5324	164.105	916.463
213.8	132.377	67.6622	165.471	917.556
215.44	133.47	67.7536	166.837	918.649
217.08	134.565	67.8875	168.206	919.744
218.72	135.656	68.0482	169.57	920.836
220.36	136.75	68.2096	170.938	921.93
222	137.843	68.3417	172.304	923.023
223.64	138.936	68.4426	173.671	924.116
225.28	140.031	68.5311	175.039	925.211
226.92	141.123	68.6631	176.403	926.302
228.56	142.217	68.813	177.771	927.396
230.2	143.31	68.9411	179.137	928.489
231.84	144.403	69.0857	180.504	929.582
233.48	145.498	69.243	181.872	930.677
235.12	146.589	69.4001	183.237	931.769
236.76	147.684	69.5961	184.605	932.863
238.4	148.777	69.7042	185.971	933.956
240.04	149.87	69.8103	187.337	935.049
241.68	150.965	69.9534	188.706	936.144
243.32	152.056	70.1164	190.07	937.236
244.96	153.15	70.2278	191.438	938.33
246.6	154.243	70.337	192.804	939.423
248.24	155.336	70.4588	194.171	940.516
249.88	156.431	70.6584	195.539	941.611
251.52	157.523	70.8386	196.903	942.702
253.16	158.617	70.9997	198.271	943.796
254.8	159.71	71.1279	199.637	944.889
256.44	160.803	71.2506	201.004	945.982
258.08	161.898	71.4272	202.372	947.077
259.72	162.989	71.6004	203.737	948.169
261.36	164.084	71.734	205.105	949.263
263	165.177	71.8624	206.471	950.356
264.64	166.27	71.9884	207.837	951.449
266.28	167.365	72.1393	209.206	952.544
267.92	168.456	72.348	210.57	953.636
269.56	169.55	72.5226	211.938	954.73
271.2	170.643	72.6512	213.304	955.823
272.84	171.736	72.8385	214.67	956.916
274.48	172.831	73.0457	216.039	958.011
276.12	173.923	73.2901	217.403	959.102
277.76	175.017	73.4993	218.771	960.196
279.4	176.11	73.7026	220.137	961.289
281.04	177.203	73.8706	221.504	962.382
282.68	178.298	74.0254	222.872	963.477
284.32	179.389	74.1912	224.237	964.569
285.96	180.484	74.356	225.605	965.663
287.6	181.577	74.517	226.971	966.756
289.24	182.67	74.6485	228.337	967.849
290.88	183.765	74.8044	229.706	968.944
292.52	184.856	74.9645	231.07	970.036
294.16	185.95	75.1651	232.438	971.13
295.8	187.043	75.4329	233.804	972.223
297.44	188.136	75.6409	235.171	973.316
299.08	189.231	75.7764	236.539	974.411
300.72	190.323	75.9244	237.903	975.502
302.36	191.417	76.1567	239.271	976.596
304	192.51	76.4374	240.637	977.689
305.64	193.603	76.7152	242.004	978.782
307.28	194.698	76.9219	243.372	979.877
308.92	195.789	77.068	244.737	980.969
310.56	196.884	77.2469	246.105	982.063
312.2	197.977	77.4558	247.471	983.156
313.84	199.07	77.6555	248.837	984.249
315.48	200.165	77.8299	250.206	985.344
317.12	201.256	78.0468	251.57	986.436
318.76	202.35	78.3064	252.938	987.53
320.4	203.444	78.589	254.304	988.623
322.04	204.536	78.8828	255.671	989.716
323.68	205.631	79.1096	257.039	990.811
325.32	206.723	79.2968	258.403	991.902
326.96	207.817	79.5413	259.771	992.996
328.6	208.91	79.7756	261.137	994.089
330.24	210.003	79.9782	262.504	995.182
331.88	211.098	80.1857	263.872	996.277
333.52	212.189	80.398	265.237	997.369
335.16	213.284	80.5972	266.605	998.463
336.8	214.377	80.8341	267.971	999.556
338.44	215.47	81.0535	269.337	1000.65
340.08	216.565	81.3309	270.706	1001.74
341.72	217.656	81.5482	272.07	1002.84
343.36	218.751	81.7743	273.438	1003.93
345	219.843	82.0221	274.804	1005.02
346.64	220.936	82.2499	276.171	1006.12
348.28	222.031	82.474	277.539	1007.21
349.92	223.123	82.6901	278.903	1008.3
351.56	224.217	82.9857	280.271	1009.4
353.2	225.31	83.208	281.637	1010.49
354.84	226.403	83.4103	283.004	1011.58
356.48	227.498	83.6191	284.372	1012.68
358.12	228.589	83.9065	285.737	1013.77
359.76	229.684	84.2221	287.105	1014.86
361.4	230.777	84.5057	288.471	1015.96
363.04	231.87	84.7188	289.837	1017.05
364.68	232.965	84.886	291.206	1018.14
366.32	234.056	85.0721	292.57	1019.24
367.96	235.15	85.2457	293.938	1020.33
369.6	236.243	85.4419	295.304	1021.42
371.24	237.336	85.6556	296.671	1022.52
372.88	238.431	85.9051	298.039	1023.61
374.52	239.523	86.1666	299.403	1024.7
376.16	240.617	86.5242	300.771	1025.8
377.8	241.71	86.8587	302.137	1026.89
379.44	242.803	87.204	303.504	1027.98
381.08	243.898	87.4833	304.872	1029.08
382.72	244.989	87.7125	306.237	1030.17
384.36	246.084	87.9222	307.605	1031.26
386	247.177	88.1766	308.971	1032.36
387.64	248.27	88.4654	310.337	1033.45
389.28	249.365	88.7081	311.706	1034.54
390.92	250.456	88.9621	313.07	1035.64
392.56	251.55	89.2357	314.438	1036.73
394.2	252.643	89.5303	315.804	1037.82
395.84	253.736	89.7922	317.171	1038.92
397.48	254.831	90.1037	318.539	1040.01
399.12	255.923	90.3606	319.903	1041.1
400.76	257.017	90.5986	321.271	1042.2
402.4	258.11	90.8625	322.637	1043.29
404.04	259.203	91.1168	324.004	1044.38
405.68	260.298	91.3992	325.372	1045.48
407.32	261.389	91.6642	326.737	1046.57
408.96	262.484	91.9539	328.105	1047.66
410.6	263.577	92.1843	329.471	1048.76
412.24	264.67	92.4269	330.837	1049.85
413.88	265.765	92.6786	332.206	1050.94
415.52	266.856	92.9371	333.57	1052.04
417.16	267.951	93.2309	334.938	1053.13
418.8	269.043	93.5502	336.304	1054.22
420.44	270.136	93.944	337.671	1055.32
422.08	271.231	94.2387	339.039	1056.41
423.72	272.323	94.4728	340.403	1057.5
425.36	273.417	94.7643	341.771	1058.6
427	274.51	95.0381	343.137	1059.69
428.6	275.577	95.2095	344.471	1060.76